Folder: hp-edxd/resources

Note: resources/scan_setup.scan.json
{
    "multiangle_settings": [
        [
            3.3,
            0.3,
            0.1,
            0.3,
            0.1,
            3.5,
            0.1,
            30.0
        ],
        [
            4.1,
            0.3,
            0.1,
            0.3,
            0.1,
            3.5,
            0.1,
            30.0
        ],
        [
            5.0,
            0.3,
            0.1,
            0.3,
            0.1,
            3.5,
            0.1,
            30.0
        ],
        [
            6.1,
            0.3,
            0.1,
            0.3,
            0.1,
            3.5,
            0.1,
            30.0
        ],
        [
            7.4,
            0.3,
            0.1,
            0.3,
            0.1,
            3.5,
            0.1,
            30.0
        ],
        [
            9.1,
            0.3,
            0.1,
            0.3,
            0.1,
            3.5,
            0.1,
            30.0
        ],
        [
            11.1,
            0.3,
            0.1,
            0.3,
            0.1,
            3.5,
            0.1,
            30.0
        ],
        [
            13.6,
            0.3,
            0.1,
            0.3,
            0.1,
            3.5,
            0.1,
            30.0
        ],
        [
            16.7,
            0.3,
            0.1,
            0.3,
            0.1,
            3.5,
            0.1,
            30.0
        ],
        [
            20.5,
            0.3,
            0.1,
            0.3,
            0.1,
            3.5,
            0.1,
            30.0
        ],
        [
            25.1,
            0.3,
            0.1,
            0.3,
            0.1,
            3.5,
            0.1,
            30.0
        ]
    ]
}

Note: README.md
# hp-edxd
 
Python-based suite of programs for data collection, viewing and analysis of energy-dispersive x-ray diffraction. The software has specialized features for experiments on materials under high pressure. The software is currently used at beamline 16-BM-B, Advanced Photon Source to acquire, view, and process the x-ray diffraction data.

The programs work with Anaconda Python 3.7 <br>
required python packages: <br>
pyqt5 5.9.2 <br>
pyqtgraph 0.10.0<br>
pyepics 3.4.0<br>
burnman 0.9.0<br>
PyCifRW 4.4.1 <br>

### Executables

Executable versions for Windows, Mac OS (all 64bit) can be downloaded from:

https://github.com/hrubiak/hp-edxd/releases

The executable versions are self-contained and do not need a python installation.

File: CeO2_Nov15_2013_003_0001.chi
Z:\500_500\Data\2013-3\Ross\HPmelting\Mo\cell_gs-1\CeO2_Nov15_2013_003_0001.tif:
2-Theta Angle (Degrees)

       1110
 5.32785  142.601
 5.40549  143.008
 5.48312  143.588
 5.56076  144.409
 5.6384  144.433
 5.71603  144.342
 5.79367  143.652
 5.87131  142.374
 5.94895  141.556
 6.02658  141.382
 6.10422  139.359
 6.18186  136.976
 6.25949  135.271
 6.33713  134.237
 6.41477  131.372
 6.4924  129.396
 6.57004  128.369
 6.64768  126.721
 6.72532  124.597
 6.80295  121.853
 6.88059  120.863
 6.95823  119.624
 7.03586  119.501
 7.1135  118.82
 7.19114  121.308
 7.26878  127.061
 7.34641  147.514
 7.42405  1595.5
 7.50169  1709.05
 7.57932  145.193
 7.65696  118.293
 7.7346  106.812
 7.81224  100.965
 7.88987  96.9224
 7.96751  94.1184
 8.04515  90.7388
 8.12278  89.8361
 8.20042  86.9945
 8.27806  86.3651
 8.3557  85.6498
 8.43333  86.574
 8.51097  92.1376
 8.58861  757.398
 8.66624  289.623
 8.74388  86.6074
 8.82152  79.4271
 8.89916  76.7633
 8.97679  74.569
 9.05443  72.706
 9.13207  71.7289
 9.2097  70.4348
 9.28734  69.2088
 9.36498  68.1878
 9.44262  67.4316
 9.52025  67.1527
 9.59789  66.2889
 9.67553  65.3336
 9.75316  64.7637
 9.8308  64.2347
 9.90844  63.2123
 9.98608  62.7924
 10.0637  62.6143
 10.1413  62.3474
 10.219  62.0511
 10.2966  62.1908
 10.3743  63.2601
 10.4519  71.1669
 10.5295  68.9632
 10.6072  63.1005
 10.6848  61.5404
 10.7624  62.0167
 10.8401  61.8762
 10.9177  62.5192
 10.9954  62.0047
 11.073  62.0399
 11.1506  62.3194
 11.2283  62.2264
 11.3059  62.0653
 11.3835  62.5196
 11.4612  62.6673
 11.5388  63.0715
 11.6165  63.5144
 11.6941  63.9324
 11.7717  65.0599
 11.8494  67.5047
 11.927  69.3769
 12.0046  74.9543
 12.0823  88.5721
 12.1599  933.458
 12.2376  1113.38
 12.3152  91.7898
 12.3928  75.5402
 12.4705  70.0731
 12.5481  66.6044
 12.6257  64.8713
 12.7034  63.2133
 12.781  62.3289
 12.8586  61.5317
 12.9363  61.5038
 13.0139  61.0036
 13.0916  60.4757
 13.1692  60.9419
 13.2468  60.7195
 13.3245  60.7421
 13.4021  60.5969
 13.4797  60.9057
 13.5574  60.7537
 13.635  61.0456
 13.7127  61.5787
 13.7903  62.1199
 13.8679  62.8735
 13.9456  64.1356
 14.0232  66.1017
 14.1008  70.4507
 14.1785  79.8392
 14.2561  201.727
 14.3338  2469.09
 14.4114  98.3923
 14.489  75.6581
 14.5667  69.3827
 14.6443  66.4804
 14.7219  65.4625
 14.7996  67.2245
 14.8772  74.6886
 14.9549  578.804
 15.0325  72.4642
 15.1101  63.6057
 15.1878  62.2459
 15.2654  61.4063
 15.343  60.4301
 15.4207  60.6091
 15.4983  60.113
 15.5759  60.0121
 15.6536  59.6832
 15.7312  59.715
 15.8089  60.1794
 15.8865  59.8406
 15.9641  59.6926
 16.0418  59.6841
 16.1194  59.8254
 16.197  59.7963
 16.2747  59.8832
 16.3523  59.9303
 16.43  59.9534
 16.5076  59.8894
 16.5852  59.7682
 16.6629  60.2617
 16.7405  60.3799
 16.8181  60.5698
 16.8958  61.0396
 16.9734  61.4823
 17.0511  62.1997
 17.1287  63.7464
 17.2063  71.3081
 17.284  632.932
 17.3616  73.564
 17.4392  64.8935
 17.5169  62.7634
 17.5945  62.1805
 17.6722  61.4623
 17.7498  61.2361
 17.8274  61.3563
 17.9051  61.4907
 17.9827  61.8983
 18.0603  62.4321
 18.138  64.4643
 18.2156  67.4281
 18.2932  64.6268
 18.3709  63.6672
 18.4485  63.8184
 18.5262  64.8945
 18.6038  66.4082
 18.6814  69.3487
 18.7591  81.5294
 18.8367  1227.55
 18.9143  124.171
 18.992  73.9756
 19.0696  69.578
 19.1473  68.7327
 19.2249  71.5461
 19.3025  236.112
 19.3802  358.619
 19.4578  71.2281
 19.5354  65.9205
 19.6131  63.57
 19.6907  62.3878
 19.7684  61.4038
 19.846  60.6313
 19.9236  59.6345
 20.0013  59.9384
 20.0789  58.4949
 20.1565  58.2016
 20.2342  57.8374
 20.3118  57.2974
 20.3895  56.9273
 20.4671  56.6537
 20.5447  56.511
 20.6224  55.9969
 20.7  56.0621
 20.7776  56.124
 20.8553  56.5263
 20.9329  57.3036
 21.0105  59.4395
 21.0882  64.6819
 21.1658  235.332
 21.2435  551.762
 21.3211  67.3243
 21.3987  59.7138
 21.4764  56.4803
 21.554  54.9184
 21.6316  54.0473
 21.7093  53.7507
 21.7869  53.2858
 21.8646  52.918
 21.9422  52.6486
 22.0198  52.9956
 22.0975  52.9583
 22.1751  53.3983
 22.2527  54.3795
 22.3304  56.2687
 22.408  62.6685
 22.4857  583.804
 22.5633  212.32
 22.6409  61.0087
 22.7186  56.0492
 22.7962  53.8277
 22.8738  52.8946
 22.9515  51.6643
 23.0291  51.3083
 23.1068  51.0781
 23.1844  50.6731
 23.262  50.681
 23.3397  50.4451
 23.4173  50.5637
 23.4949  51.4704
 23.5726  52.2534
 23.6502  51.654
 23.7278  50.7336
 23.8055  50.2541
 23.8831  50.6956
 23.9608  50.2494
 24.0384  50.601
 24.116  50.5041
 24.1937  50.8413
 24.2713  50.9398
 24.3489  52.2327
 24.4266  53.5488
 24.5042  149.851
 24.5819  136.245
 24.6595  55.091
 24.7371  51.8855
 24.8148  52.3864
 24.8924  51.6148
 24.97  52.4019
 25.0477  51.3295
 25.1253  51.7526
 25.203  52.0281
 25.2806  52.6848
 25.3582  53.1962
 25.4359  53.4872
 25.5135  56.7699
 25.5911  65.5258
 25.6688  779.901
 25.7464  104.816
 25.8241  61.2139
 25.9017  59.4418
 25.9793  66.4239
 26.057  510.021
 26.1346  64.9421
 26.2122  55.0555
 26.2899  53.8121
 26.3675  52.1595
 26.4451  51.5709
 26.5228  52.4888
 26.6004  51.6837
 26.6781  52.9701
 26.7557  51.6562
 26.7945  51.4322